Folder: bentrueman.github.io/_site/posts/2021-06-29-peak-detection-for-qualitative-xrd-analysis-in-r

Note: README.md
<!-- README.md is generated from README.Rmd. Please edit that file -->

bentrueman.github.io
====================

This repository contains the source code for
[bentrueman.github.io](https://bentrueman.github.io/).

File: XRD_Ortho_P_pH7.5_DIC5 copy.txt
 10.0000       0.00
 10.2500       4.93
 10.5000      11.75
 10.7500       5.78
 11.0000       0.00
 11.2500       3.83
 11.5000       3.10
 11.7500       1.02
 12.0000       1.40
 12.2500       0.76
 12.5000       6.65
 12.7500       2.13
 13.0000       3.85
 13.2500       6.44
 13.5000       0.00
 13.7500       3.00
 14.0000       1.76
 14.2500       3.67
 14.5000       4.75
 14.7500       3.07
 15.0000      10.79
 15.2500       6.97
 15.5000       0.00
 15.7500      13.87
 16.0000       0.00
 16.2500       4.91
 16.5000       1.18
 16.7500       4.51
 17.0000       1.10
 17.2500       4.87
 17.5000       0.26
 17.7500      11.48
 18.0000      19.98
 18.2500       0.00
 18.5000       4.62
 18.7500       0.00
 19.0000       1.38
 19.2500       0.00
 19.5000      12.45
 19.7500       0.00
 20.0000       7.76
 20.2500       3.81
 20.5000      37.13
 20.7500     143.09
 21.0000       0.00
 21.2500      12.83
 21.5000     194.28
 21.7500      16.93
 22.0000       3.17
 22.2500       6.61
 22.5000       0.00
 22.7500       0.00
 23.0000       1.60
 23.2500       2.30
 23.5000       8.89
 23.7500      23.63
 24.0000      18.07
 24.2500       0.00
 24.5000       5.13
 24.7500      13.54
 25.0000       4.21
 25.2500       0.00
 25.5000       3.70
 25.7500       0.95
 26.0000     182.86
 26.2500      32.18
 26.5000       9.48
 26.7500       0.00
 27.0000      15.09
 27.2500      28.11
 27.5000     206.91
 27.7500      19.81
 28.0000       4.14
 28.2500       5.82
 28.5000       2.87
 28.7500       2.92
 29.0000      10.21
 29.2500       3.95
 29.5000      21.07
 29.7500      69.32
 30.0000    1000.00
 30.2500     145.60
 30.5000      23.17
 30.7500      22.75
 31.0000      38.20
 31.2500     302.85
 31.5000      47.17
 31.7500      19.38
 32.0000       0.46
 32.2500       0.00
 32.5000       0.00
 32.7500       4.31
 33.0000       0.00
 33.2500       2.16
 33.5000       0.00
 33.7500       0.00
 34.0000       0.00
 34.2500       2.71
 34.5000       0.00
 34.7500       0.00
 35.0000       2.36
 35.2500       0.00
 35.5000       7.85
 35.7500       2.79
 36.0000       4.81
 36.2500       9.30
 36.5000       4.24
 36.7500       2.58
 37.0000       1.22
 37.2500       0.00
 37.5000       0.42
 37.7500       9.10
 38.0000       4.50
 38.2500       0.00
 38.5000       0.08
 38.7500       0.00
 39.0000       4.99
 39.2500       0.00
 39.5000       5.70
 39.7500      25.47
 40.0000       5.94
 40.2500       0.47
 40.5000      65.90
 40.7500      42.60
 41.0000       0.00
 41.2500       0.34
 41.5000       1.66
 41.7500       0.02
 42.0000      27.90
 42.2500      20.70
 42.5000       8.77
 42.7500       0.82
 43.0000       5.28
 43.2500       3.12
 43.5000      10.87
 43.7500     115.08
 44.0000     128.39
 44.2500       7.06
 44.5000       7.73
 44.7500       1.48
 45.0000      52.71
 45.2500     118.94
 45.5000      14.84
 45.7500      31.20
 46.0000     171.16
 46.2500      69.89
 46.5000      14.42
 46.7500       2.77
 47.0000       2.63
 47.2500       6.73
 47.5000      25.85
 47.7500     111.52
 48.0000      45.70
 48.2500      24.42
 48.5000      87.59
 48.7500     182.41
 49.0000     218.42
 49.2500      36.24
 49.5000      10.95
 49.7500      18.47
 50.0000       6.10
 50.2500       7.68
 50.5000       4.09
 50.7500       0.00
 51.0000       1.38
 51.2500       4.06
 51.5000       6.53
 51.7500       2.20
 52.0000       0.00
 52.2500       4.79
 52.5000      17.09
 52.7500       0.47
 53.0000       4.41
 53.2500       0.48
 53.5000      20.70
 53.7500      10.64
 54.0000       5.74
 54.2500       7.60
 54.5000      10.08
 54.7500      13.92
 55.0000      17.71
 55.2500       3.45
 55.5000       6.89
 55.7500       7.76
 56.0000      11.52
 56.2500       6.43
 56.5000      25.02
 56.7500      54.81
 57.0000      92.47
 57.2500      41.45
 57.5000       7.58
 57.7500      11.90
 58.0000       0.00
 58.2500      10.44
 58.5000       3.76
 58.7500       6.95
 59.0000      43.04
 59.2500      81.18
 59.5000      30.71
 59.7500      29.91
 60.0000      59.27
 60.2500      16.53
 60.5000       4.35
 60.7500       4.21
 61.0000      13.12
 61.2500      55.83
 61.5000      64.30
 61.7500      12.98
 62.0000      10.07
 62.2500      11.00
 62.5000       4.80
 62.7500       6.89
 63.0000       2.22
 63.2500       7.23
 63.5000       0.00
 63.7500       4.60
 64.0000       0.00
 64.2500       5.58
 64.5000       0.00
 64.7500       0.04
 65.0000       2.15
 65.2500      11.32
 65.5000       0.93
 65.7500       2.77
 66.0000       0.59
 66.2500       2.07
 66.5000       5.94
 66.7500       3.00
 67.0000       3.69
 67.2500       7.02
 67.5000       0.00
 67.7500       3.46
 68.0000      15.31
 68.2500      12.93
 68.5000       2.02
 68.7500       7.63
 69.0000       7.75
 69.2500      24.06
 69.5000      45.95
 69.7500      23.51
 70.0000      12.21
 70.2500       6.30
 70.5000      33.28
 70.7500      14.15
 71.0000      13.71
 71.2500      44.90
 71.5000      53.57
 71.7500      21.88
 72.0000      25.85
 72.2500      29.24
 72.5000      10.34
 72.7500       8.81
 73.0000       4.66
 73.2500      29.45
 73.5000      48.91
 73.7500      20.10
 74.0000      12.59
 74.2500       0.00
 74.5000       3.02
 74.7500       0.00
 75.0000       2.99
 75.2500       6.11
 75.5000       0.50
 75.7500       1.10
 76.0000       0.00
 76.2500       2.51
 76.5000       0.00
 76.7500      15.27
 77.0000      20.37
 77.2500      12.87
 77.5000      13.71
 77.7500       4.16
 78.0000      14.71
 78.2500      15.86
 78.5000       1.97
 78.7500       0.00
 79.0000       0.92
 79.2500       3.11
 79.5000      22.61
 79.7500       3.45
 80.0000       0.00