Folder: bentrueman.github.io/_posts/2021-06-29-peak-detection-for-qualitative-xrd-analysis-in-r

Note: README.md
<!-- README.md is generated from README.Rmd. Please edit that file -->

bentrueman.github.io
====================

This repository contains the source code for
[bentrueman.github.io](https://bentrueman.github.io/).

File: XRD_Ortho_P_pH7.5_DIC50 copy.txt
10	32
10.25	29
10.5	32
10.75	32
11	31
11.25	32
11.5	33
11.75	34
12	32
12.25	25
12.5	24
12.75	21
13	30
13.25	30
13.5	21
13.75	23
14	22
14.25	17
14.5	19
14.75	25
15	25
15.25	18
15.5	16
15.75	14
16	16
16.25	15
16.5	19
16.75	17
17	16
17.25	23
17.5	20
17.75	28
18	30
18.25	18
18.5	15
18.75	17
19	19
19.25	22
19.5	16
19.75	16
20	32
20.25	31
20.5	33
20.75	122
21	41
21.25	17
21.5	180
21.75	41
22	17
22.25	18
22.5	8
22.75	12
23	13
23.25	17
23.5	11
23.75	21
24	39
24.25	17
24.5	21
24.75	158
25	125
25.25	42
25.5	180
25.75	32
26	127
26.25	63
26.5	26
26.75	16
27	22
27.25	36
27.5	175
27.75	39
28	27
28.25	27
28.5	17
28.75	13
29	36
29.25	31
29.5	25
29.75	57
30	710
30.25	156
30.5	41
30.75	30
31	40
31.25	240
31.5	54
31.75	22
32	19
32.25	10
32.5	9
32.75	10
33	12
33.25	14
33.5	13
33.75	8
34	13
34.25	18
34.5	18
34.75	50
35	20
35.25	12
35.5	35
35.75	55
36	33
36.25	105
36.5	30
36.75	13
37	13
37.25	14
37.5	13
37.75	18
38	9
38.25	22
38.5	7
38.75	12
39	20
39.25	7
39.5	13
39.75	18
40	13
40.25	18
40.5	52
40.75	70
41	26
41.25	17
41.5	19
41.75	22
42	27
42.25	34
42.5	17
42.75	15
43	14
43.25	12
43.5	113
43.75	111
44	95
44.25	32
44.5	21
44.75	18
45	61
45.25	156
45.5	41
45.75	50
46	179
46.25	58
46.5	29
46.75	21
47	81
47.25	44
47.5	27
47.75	86
48	37
48.25	32
48.5	87
48.75	110
49	205
49.25	75
49.5	39
49.75	21
50	20
50.25	24
50.5	17
50.75	21
51	35
51.25	19
51.5	22
51.75	12
52	15
52.25	11
52.5	34
52.75	19
53	14
53.25	13
53.5	19
53.75	23
54	19
54.25	18
54.5	18
54.75	26
55	30
55.25	16
55.5	15
55.75	16
56	22
56.25	33
56.5	24
56.75	57
57	78
57.25	38
57.5	19
57.75	20
58	17
58.25	42
58.5	22
58.75	21
59	46
59.25	94
59.5	39
59.75	40
60	51
60.25	23
60.5	22
60.75	16
61	29
61.25	72
61.5	67
61.75	56
62	19
62.25	26
62.5	19
62.75	20
63	45
63.25	24
63.5	21
63.75	9
64	16
64.25	26
64.5	29
64.75	22
65	22
65.25	27
65.5	26
65.75	21
66	24
66.25	18
66.5	19
66.75	13
67	13
67.25	14
67.5	13
67.75	12
68	27
68.25	23
68.5	17
68.75	21
69	11
69.25	41
69.5	69
69.75	24
70	21
70.25	27
70.5	20
70.75	28
71	45
71.25	49
71.5	72
71.75	37
72	33
72.25	56
72.5	42
72.75	32
73	26
73.25	55
73.5	47
73.75	33
74	37
74.25	24
74.5	19
74.75	26
75	26
75.25	24
75.5	20
75.75	16
76	14
76.25	20
76.5	34
76.75	36
77	45
77.25	30
77.5	22
77.75	18
78	31
78.25	19
78.5	27
78.75	36
79	28
79.25	23
79.5	37
79.75	25
79.9	25

File: xrd_standards.csv
d,two_theta,intensity,h,k,l,mult,phase,id
5.3756,16.4773,27.01,1,1,0,4,Anglesite,96-900-4485
4.236,20.9546,299.41,0,2,0,2,Anglesite,96-900-4485
3.6178,24.587,214.91,1,2,0,4,Anglesite,96-900-4485
3.3323,26.7312,829.91,0,2,1,4,Anglesite,96-900-4485
3.0051,29.7045,1000,1,2,1,8,Anglesite,96-900-4485
2.6986,33.1701,462.67,0,0,2,2,Anglesite,96-900-4485
2.6165,34.2428,97.46,1,3,0,4,Anglesite,96-900-4485
2.406,37.3456,180.66,2,2,1,8,Anglesite,96-900-4485
2.276,39.564,199.74,0,2,2,4,Anglesite,96-900-4485
2.1922,41.144,62.88,2,3,0,4,Anglesite,96-900-4485
2.132,42.361,56.67,2,0,2,4,Anglesite,96-900-4485
2.118,42.6542,1.69,0,4,0,2,Anglesite,96-900-4485
2.0658,43.7865,515.15,3,1,1,8,Anglesite,96-900-4485
2.031,44.5759,354.65,2,3,1,8,Anglesite,96-900-4485
1.9716,45.9952,225.06,0,4,1,4,Anglesite,96-900-4485
1.9031,47.7535,1.59,3,2,1,8,Anglesite,96-900-4485
1.8785,48.4166,73.05,1,3,2,8,Anglesite,96-900-4485
1.7919,50.9212,183.67,3,3,0,4,Anglesite,96-900-4485
1.7387,52.5941,20.48,4,0,0,2,Anglesite,96-900-4485
1.7151,53.3744,29.33,2,4,1,8,Anglesite,96-900-4485
1.7032,53.7774,89.7,4,1,0,4,Anglesite,96-900-4485
1.7006,53.8677,79.83,3,3,1,8,Anglesite,96-900-4485
1.6559,55.443,75.17,0,2,3,4,Anglesite,96-900-4485
1.6243,56.6202,40.1,4,1,1,8,Anglesite,96-900-4485
1.6203,56.772,186.67,1,4,2,8,Anglesite,96-900-4485
1.6085,57.2264,11.33,4,2,0,4,Anglesite,96-900-4485
1.5702,58.7555,62.15,2,1,3,8,Anglesite,96-900-4485
1.5415,59.9614,17.36,4,2,1,8,Anglesite,96-900-4485
1.5026,61.6816,0.44,2,4,2,8,Anglesite,96-900-4485
1.4951,62.0248,26.29,2,2,3,8,Anglesite,96-900-4485
1.4825,62.6115,7.05,1,3,3,8,Anglesite,96-900-4485
1.4659,63.3988,93.48,2,5,1,8,Anglesite,96-900-4485
1.4403,64.661,127.29,4,1,2,8,Anglesite,96-900-4485
1.4213,65.6345,0.49,3,0,3,4,Anglesite,96-900-4485
1.4054,66.4739,37.77,1,5,2,8,Anglesite,96-900-4485
1.3907,67.2681,84.82,2,3,3,8,Anglesite,96-900-4485
1.3817,67.7672,11.9,4,2,2,8,Anglesite,96-900-4485
1.3712,68.3572,63.95,0,4,3,4,Anglesite,96-900-4485
1.366,68.6515,50.65,0,6,1,4,Anglesite,96-900-4485
1.3493,69.6229,56.3,0,0,4,2,Anglesite,96-900-4485
1.347,69.7624,43.05,5,0,1,4,Anglesite,96-900-4485
1.3439,69.9455,0.02,4,4,0,4,Anglesite,96-900-4485
1.3303,70.7688,17.23,5,1,1,8,Anglesite,96-900-4485
1.326,71.0279,28.25,3,5,1,8,Anglesite,96-900-4485
1.3087,72.1136,1.14,1,1,4,8,Anglesite,96-900-4485
1.3041,72.4116,24.63,4,4,1,8,Anglesite,96-900-4485
1.2857,73.6167,16.5,0,2,4,4,Anglesite,96-900-4485
1.2756,74.2951,13.4,2,4,3,8,Anglesite,96-900-4485
1.2696,74.7073,33.04,3,3,3,8,Anglesite,96-900-4485
1.2579,75.5188,17.25,2,0,4,4,Anglesite,96-900-4485
1.2478,76.2405,11.76,5,3,0,4,Anglesite,96-900-4485
1.2369,77.0392,19.83,4,1,3,8,Anglesite,96-900-4485
1.2234,78.0436,0.01,5,1,2,8,Anglesite,96-900-4485
1.2158,78.6321,10.37,5,3,1,8,Anglesite,96-900-4485
1.2135,78.8074,1.89,4,5,0,4,Anglesite,96-900-4485
1.2059,79.4014,3.87,2,2,4,8,Anglesite,96-900-4485
1.1993,79.9296,13.91,1,3,4,8,Anglesite,96-900-4485
1.1924,80.4852,0.53,1,7,0,4,Anglesite,96-900-4485
1.1839,81.1777,39.99,4,5,1,8,Anglesite,96-900-4485
1.1772,81.7385,7.92,2,6,2,8,Anglesite,96-900-4485
1.1643,82.8444,8.83,1,7,1,8,Anglesite,96-900-4485
1.1625,82.9996,33.25,2,5,3,8,Anglesite,96-900-4485
1.1553,83.6352,6.19,3,1,4,8,Anglesite,96-900-4485
1.1485,84.2467,0.18,6,1,0,4,Anglesite,96-900-4485
1.143,84.7386,26.31,2,7,0,4,Anglesite,96-900-4485
1.1366,85.3326,0.02,5,4,1,8,Anglesite,96-900-4485
1.1243,86.488,0.41,3,2,4,8,Anglesite,96-900-4485
1.1231,86.6106,65.91,1,4,4,8,Anglesite,96-900-4485
1.118,87.0971,10.7,6,2,0,4,Anglesite,96-900-4485
1.1067,88.2145,0.55,4,5,2,8,Anglesite,96-900-4485
1.1004,88.8532,20.07,5,0,3,4,Anglesite,96-900-4485
1.0961,89.299,2.38,4,6,0,4,Anglesite,96-900-4485
1.0913,89.8006,6.84,5,1,3,8,Anglesite,96-900-4485
1.0889,90.0454,15.62,3,5,3,8,Anglesite,96-900-4485
1.0779,91.2269,51.71,3,3,4,8,Anglesite,96-900-4485
1.0751,91.5298,4.19,5,5,0,4,Anglesite,96-900-4485
1.0729,91.7747,3.11,3,7,0,4,Anglesite,96-900-4485
1.0678,92.3407,46.4,5,4,2,8,Anglesite,96-900-4485
1.066,92.5416,6.28,4,0,4,4,Anglesite,96-900-4485
1.0651,92.6464,26.25,6,0,2,4,Anglesite,96-900-4485
1.0583,93.4116,8.76,1,1,5,8,Anglesite,96-900-4485
1.0576,93.4902,32.01,4,1,4,8,Anglesite,96-900-4485
1.0544,93.8666,5.06,5,5,1,8,Anglesite,96-900-4485
1.0523,94.112,36.99,3,7,1,8,Anglesite,96-900-4485
1.0469,94.7442,0.05,1,8,0,4,Anglesite,96-900-4485
1.0436,95.1455,9.81,1,5,4,8,Anglesite,96-900-4485
1.0344,96.264,26.52,1,2,5,8,Anglesite,96-900-4485
1.0329,96.4483,20.13,6,2,2,8,Anglesite,96-900-4485
1.0253,97.3998,8.13,5,3,3,8,Anglesite,96-900-4485
1.0216,97.883,1.17,3,4,4,8,Anglesite,96-900-4485
1.0155,98.6684,3.41,4,6,2,8,Anglesite,96-900-4485
1.01,99.3977,2.69,2,5,4,8,Anglesite,96-900-4485
4.9811,17.7924,0.94,0,1,1,4,Cerussite,96-901-3804
4.2496,20.8868,72.25,0,2,0,2,Cerussite,96-901-3804
3.4957,25.4601,469.21,0,2,1,4,Cerussite,96-901-3804
2.8982,30.8276,3.24,1,2,1,8,Cerussite,96-901-3804
2.6438,33.8786,12.42,1,0,2,4,Cerussite,96-901-3804
2.573,34.8407,4.2,0,3,1,4,Cerussite,96-901-3804
2.4905,36.033,86.37,0,2,2,4,Cerussite,96-901-3804
2.3046,39.0523,0.02,1,3,1,8,Cerussite,96-901-3804
2.2448,40.1369,0.03,1,2,2,8,Cerussite,96-901-3804
2.1248,42.511,22.26,0,4,0,2,Cerussite,96-901-3804
2.0819,43.4315,273.53,2,2,1,8,Cerussite,96-901-3804
1.9921,45.4964,0.36,0,1,3,4,Cerussite,96-901-3804
1.9329,46.9712,236.72,1,3,2,8,Cerussite,96-901-3804
1.8726,48.58,1.56,1,4,1,8,Cerussite,96-901-3804
1.8458,49.3325,82.17,0,2,3,4,Cerussite,96-901-3804
1.7957,50.8028,42.14,2,2,2,8,Cerussite,96-901-3804
1.7388,52.5913,0.82,1,2,3,8,Cerussite,96-901-3804
1.6604,55.2827,0,0,3,3,4,Cerussite,96-901-3804
1.6431,55.9124,14.41,2,4,0,4,Cerussite,96-901-3804
1.6323,56.3153,87.52,3,1,1,8,Cerussite,96-901-3804
1.6152,56.9671,14.81,1,5,0,4,Cerussite,96-901-3804
1.5812,58.3078,0.08,1,3,3,8,Cerussite,96-901-3804
1.5622,59.0882,72.67,1,5,1,8,Cerussite,96-901-3804
1.5369,60.1608,19.96,0,0,4,2,Cerussite,96-901-3804
1.5061,61.5205,0.23,3,0,2,4,Cerussite,96-901-3804
1.4875,62.3749,0.11,0,5,2,4,Cerussite,96-901-3804
1.4751,62.9609,40.84,3,3,0,4,Cerussite,96-901-3804
1.4735,63.0382,0,1,0,4,4,Cerussite,96-901-3804
1.4491,64.2241,20.48,2,4,2,8,Cerussite,96-901-3804
1.4344,64.9635,0.27,3,3,1,8,Cerussite,96-901-3804
1.4196,65.724,0.22,3,2,2,8,Cerussite,96-901-3804
1.4165,65.8843,18.29,0,6,0,2,Cerussite,96-901-3804
1.3922,67.1896,0.45,1,2,4,8,Cerussite,96-901-3804
1.3804,67.8409,0,0,6,1,4,Cerussite,96-901-3804
1.3339,70.5486,0.03,1,6,1,8,Cerussite,96-901-3804
1.3219,71.2838,28.35,2,0,4,4,Cerussite,96-901-3804
1.3083,72.1411,0.08,0,5,3,4,Cerussite,96-901-3804
1.3062,72.2748,0.03,2,1,4,8,Cerussite,96-901-3804
1.2958,72.9474,17.95,4,0,0,2,Cerussite,96-901-3804
1.2865,73.5623,26.38,0,6,2,4,Cerussite,96-901-3804
1.2685,74.7814,41.59,1,5,3,8,Cerussite,96-901-3804
1.2614,75.2784,0.22,3,2,3,8,Cerussite,96-901-3804
1.2486,76.1842,0.5,1,6,2,8,Cerussite,96-901-3804
1.243,76.5914,31.16,2,6,0,4,Cerussite,96-901-3804
1.2287,77.6436,0.01,3,4,2,8,Cerussite,96-901-3804
1.2168,78.5495,0.24,0,1,5,4,Cerussite,96-901-3804
1.2117,78.9453,3.85,3,5,0,4,Cerussite,96-901-3804
1.1979,80.0362,0.59,2,3,4,8,Cerussite,96-901-3804
1.194,80.3493,16.61,4,0,2,4,Cerussite,96-901-3804
1.1888,80.7732,27.89,3,5,1,8,Cerussite,96-901-3804
1.1824,81.3027,0.26,4,1,2,8,Cerussite,96-901-3804
1.1811,81.4173,12.76,0,2,5,4,Cerussite,96-901-3804
[...]
1.6147,56.9863,33,NA,NA,NA,NA,Hydroxypyromorphite,00-086-0236
1.60949,57.1878,64,NA,NA,NA,NA,Hydroxypyromorphite,00-086-0236
1.60545,57.345,60,NA,NA,NA,NA,Hydroxypyromorphite,00-086-0236
1.57783,58.4449,1,NA,NA,NA,NA,Hydroxypyromorphite,00-086-0236
1.55526,59.3773,57,NA,NA,NA,NA,Hydroxypyromorphite,00-086-0236
1.55232,59.501,54,NA,NA,NA,NA,Hydroxypyromorphite,00-086-0236
1.53671,60.1675,49,NA,NA,NA,NA,Hydroxypyromorphite,00-086-0236
1.53458,60.2596,29,NA,NA,NA,NA,Hydroxypyromorphite,00-086-0236
1.50348,61.6402,78,NA,NA,NA,NA,Hydroxypyromorphite,00-086-0236
1.50348,61.6402,78,NA,NA,NA,NA,Hydroxypyromorphite,00-086-0236
1.48929,62.2927,1,NA,NA,NA,NA,Hydroxypyromorphite,00-086-0236
1.48328,62.5735,3,NA,NA,NA,NA,Hydroxypyromorphite,00-086-0236
1.48073,62.6934,2,NA,NA,NA,NA,Hydroxypyromorphite,00-086-0236
1.46326,63.5287,1,NA,NA,NA,NA,Hydroxypyromorphite,00-086-0236
1.42213,65.5923,9,NA,NA,NA,NA,Hydroxypyromorphite,00-086-0236
1.41823,65.7954,5,NA,NA,NA,NA,Hydroxypyromorphite,00-086-0236
1.40122,66.6976,12,NA,NA,NA,NA,Hydroxypyromorphite,00-086-0236
1.39854,66.8422,6,NA,NA,NA,NA,Hydroxypyromorphite,00-086-0236
1.38017,67.8516,2,NA,NA,NA,NA,Hydroxypyromorphite,00-086-0236
1.36966,68.4441,12,NA,NA,NA,NA,Hydroxypyromorphite,00-086-0236
1.34933,69.6226,36,NA,NA,NA,NA,Hydroxypyromorphite,00-086-0236
1.3479,69.7071,28,NA,NA,NA,NA,Hydroxypyromorphite,00-086-0236
1.34552,69.8483,42,NA,NA,NA,NA,Hydroxypyromorphite,00-086-0236
1.32959,70.8098,25,NA,NA,NA,NA,Hydroxypyromorphite,00-086-0236
1.31556,71.6808,56,NA,NA,NA,NA,Hydroxypyromorphite,00-086-0236
1.31379,71.7923,25,NA,NA,NA,NA,Hydroxypyromorphite,00-086-0236
1.30428,72.3982,25,NA,NA,NA,NA,Hydroxypyromorphite,00-086-0236
1.28378,73.7433,64,NA,NA,NA,NA,Hydroxypyromorphite,00-086-0236
1.28378,73.7433,64,NA,NA,NA,NA,Hydroxypyromorphite,00-086-0236
1.27234,74.518,1,NA,NA,NA,NA,Hydroxypyromorphite,00-086-0236
1.25845,75.4832,1,NA,NA,NA,NA,Hydroxypyromorphite,00-086-0236
1.23767,76.98,2,NA,NA,NA,NA,Hydroxypyromorphite,00-086-0236
1.23324,77.3077,24,NA,NA,NA,NA,Hydroxypyromorphite,00-086-0236
1.23093,77.4798,14,NA,NA,NA,NA,Hydroxypyromorphite,00-086-0236
1.23093,77.4798,14,NA,NA,NA,NA,Hydroxypyromorphite,00-086-0236
1.22487,77.9354,7,NA,NA,NA,NA,Hydroxypyromorphite,00-086-0236
1.22167,78.1784,5,NA,NA,NA,NA,Hydroxypyromorphite,00-086-0236
1.21835,78.4323,19,NA,NA,NA,NA,Hydroxypyromorphite,00-086-0236
1.20443,79.5173,1,NA,NA,NA,NA,Hydroxypyromorphite,00-086-0236
1.20046,79.8329,19,NA,NA,NA,NA,Hydroxypyromorphite,00-086-0236
1.19742,80.0765,24,NA,NA,NA,NA,Hydroxypyromorphite,00-086-0236
1.18378,81.1905,18,NA,NA,NA,NA,Hydroxypyromorphite,00-086-0236
1.1828,81.2719,17,NA,NA,NA,NA,Hydroxypyromorphite,00-086-0236
1.17037,82.3205,2,NA,NA,NA,NA,Hydroxypyromorphite,00-086-0236
1.17037,82.3205,2,NA,NA,NA,NA,Hydroxypyromorphite,00-086-0236
1.15955,83.2586,22,NA,NA,NA,NA,Hydroxypyromorphite,00-086-0236
1.153,83.8385,10,NA,NA,NA,NA,Hydroxypyromorphite,00-086-0236
1.13511,85.4705,1,NA,NA,NA,NA,Hydroxypyromorphite,00-086-0236
1.1317,85.7899,12,NA,NA,NA,NA,Hydroxypyromorphite,00-086-0236
1.12878,86.0657,6,NA,NA,NA,NA,Hydroxypyromorphite,00-086-0236
1.12016,86.8917,1,NA,NA,NA,NA,Hydroxypyromorphite,00-086-0236
1.11878,87.0257,1,NA,NA,NA,NA,Hydroxypyromorphite,00-086-0236
1.1062,88.2693,12,NA,NA,NA,NA,Hydroxypyromorphite,00-086-0236
1.10383,88.5083,7,NA,NA,NA,NA,Hydroxypyromorphite,00-086-0236
1.10217,88.6765,6,NA,NA,NA,NA,Hydroxypyromorphite,00-086-0236
1.09705,89.2003,9,NA,NA,NA,NA,Hydroxypyromorphite,00-086-0236
1.09474,89.439,5,NA,NA,NA,NA,Hydroxypyromorphite,00-086-0236
1.09474,89.439,5,NA,NA,NA,NA,Hydroxypyromorphite,00-086-0236